Voltage(V) Current(nA)
  4.00    3.08474800
  5.00    3.16099400
  6.00    3.52161400
  7.00    3.71531800
  8.00    3.97908600
  9.00    3.91314400
 10.00    4.18309400
 11.00    4.37267600
 12.00    4.37473700
 13.00    4.77863200
 14.00    4.69620400
 15.00    4.75802500
 16.00    4.90021200
 17.00    4.85693800
 18.00    5.11246200
 19.00    5.35768500
 20.00    5.16810200
 21.00    5.18046500
 22.00    5.32883500
 23.00    5.42774700
 24.00    5.44629400
 25.00    5.56581300
 26.00    5.54932800
 27.00    5.64411800
 28.00    5.63175500
 29.00    5.73891000
 30.00    5.86461200
 31.00    5.73479000
 32.00    5.79454900
 33.00    5.92025000
 34.00    5.94085800
 35.00    5.76569900
 36.00    6.08922700
 37.00    6.14280500
 38.00    6.15516900
 39.00    6.11807600
 40.00    6.36123800
 41.00    6.24996000
 42.00    6.31384100
 43.00    6.42305800
 44.00    6.43130100
 45.00    6.60645800
 46.00    6.79192100
 47.00    6.73422200
 48.00    6.72597800
 49.00    6.84343700
 50.00    6.92380300
 51.00    7.17520700
 52.00    7.23290700
 53.00   42.06671000
 54.00  1102.67000000
 55.00  2964.06300000
 56.00  5287.01500000
 57.00  8053.39800000
 58.00  11197.78000000
 59.00  15137.69000000
 60.00  20139.13000000
 60.00  20356.12000000
