Voltage(V) Current(nA)
  0.00    1.74736500
  1.00    2.71794700
  2.00    3.14244700
  3.00    3.43300300
  4.00    3.55046200
  5.00    4.02854100
  6.00    4.52928600
  7.00    4.58492500
  8.00    4.75596100
  9.00    4.73123300
 10.00    4.80129600
 11.00    5.13924800
 12.00    4.79923500
 13.00    5.18458300
 14.00    4.95790800
 15.00    5.24022100
 16.00    5.05270000
 17.00    5.13718800
 18.00    5.61526600
 19.00    5.47926000
 20.00    5.42568300
 21.00    5.70181400
 22.00    5.41125700
 23.00    5.80484800
 24.00    5.83163700
 25.00    5.92436800
 26.00    6.13455700
 27.00    5.87903100
 28.00    6.06449400
 29.00    6.08922200
 30.00    6.11395000
 31.00    6.26438000
 32.00    6.21904500
 33.00    6.15310300
 34.00    6.23553100
 35.00    6.19225600
 36.00    6.31177600
 37.00    6.32620100
 38.00    6.55905700
 39.00    6.35092800
 40.00    6.43541700
 41.00    6.61469500
 42.00    6.67239400
 43.00    6.62911900
 44.00    6.79191500
 45.00    6.69918300
 46.00    6.69300100
 47.00    6.72185000
 48.00    6.87640100
 49.00    7.01034700
 50.00    7.11338100
 51.00    7.19993000
 52.00    7.25968800
 53.00    7.58939700
 54.00   15.96812000
 55.00   32.63698000
 56.00   58.02251000
 57.00   90.71109000
 58.00  136.90540000
 59.00  203.53960000
 60.00  298.01150000
 60.00  289.16500000
